<?xml version="1.0" encoding="UTF-8"?>
<Bundle
    xmlns="http://hl7.org/fhir">
    <id value="Complete-Dental-Consult-Note-Document-Bundle-Example"/>
    <meta>
        <versionId value="10"/>
        <lastUpdated value="2021-08-17T18:21:09.276+00:00"/>
        <source value="#RQAXGXUYy4baqwbU"/>
        <profile value="http://hl7.org/fhir/us/dental-data-exchange/StructureDefinition/dental-bundle"/>
    </meta>
    <identifier>
        <system value="urn:ietf:rfc:3986"/>
        <value value="urn:uuid:c417cad7-57b3-47a6-bab8-33fdae616840"/>
    </identifier>
    <type value="document"/>
    <timestamp value="2021-06-25T10:30:00.000-08:00"/>
    <entry>
        <fullUrl value="http://example.org/fhir/us/dental-data-exchange/Composition/Dental-2-Med-Consult"/>
        <resource>
            <Composition>
                <id value="Dental-2-Med-Consult"/>
                <language value="en-US"/>
                <identifier>
                    <system value="urn:ietf:rfc:3986"/>
                    <value value="urn:uuid:f28fefc8-5aac-427c-93d7-f0bc7d633a9b"/>
                </identifier>
                <status value="final"/>
                <type>
                    <coding>
                        <system value="http://loinc.org"/>
                      <code value="34756-7"/>
                        <display value="Dentistry Consult note"/>
                    </coding>
                </type>
                <subject>
                    <reference value="Patient/example-dental"/>
                    <display value="Patient A"/>
                </subject>
                <encounter>
                    <reference value="Encounter/Dental-encounter"/>
                    <display value="Dental Referral with patient A"/>
                </encounter>
                <date value="2020-02-16T09:10:14Z"/>
                <author>
                    <reference value="Practitioner/practitioner-D"/>
                    <display value="Dentist D, DMD"/>
                </author>
                <title value="Consultation Note"/>
                <attester>
                    <mode value="legal"/>
                    <time value="2020-03-28T09:10:14Z"/>
                    <party>
                        <reference value="Practitioner/practitioner-D"/>
                        <display value="Dentist Dentist D, DMD"/>
                    </party>
                </attester>
                <custodian>
                    <reference value="Organization/GOHC-organization"/>
                    <display value="Good Oral Health Clinic"/>
                </custodian>
                <event>
                    <code>
                        <coding>
                            <system value="http://terminology.hl7.org/CodeSystem/v3-ActClass"/>
                            <code value="PCPR"/>
                            <display value="Care Provision"/>
                        </coding>
                    </code>
                    <period>
                        <start value="2020-02-16"/>
                        <end value="2020-02-16"/>
                    </period>
                </event>
                <section>
                    <title value="Allergies and Intolerances Section"/>
                    <code>
                        <coding>
                            <system value="http://loinc.org"/>
                            <code value="48765-2"/>
                            <display value="Allergies and adverse reactions Document"/>
                        </coding>
                    </code>
                    <text>
                        <status value="generated"/>
                        <div
                            xmlns="http://www.w3.org/1999/xhtml">
                            <table>
                                <tr>
                                    <td>
                                        <b>Substance</b>
                                    </td>
                                    <td>
                                        <b>Overall Severity</b>
                                    </td>
                                    <td>
                                        <b>Reaction</b>
                                    </td>
                                    <td>
                                        <b>Reaction Severity</b>
                                    </td>
                                    <td>
                                        <b>Status</b>
                                    </td>
                                </tr>
                                <tr>
                                    <td>Penicillin G (Ingredient)</td>
                                    <td>Mild</td>
                                    <td>Skin rash</td>
                                    <td>Mild</td>
                                    <td>Active</td>
                                </tr>
                            </table>
                        </div>
                    </text>
                    <entry>
                        <reference value="AllergyIntolerance/Allergy-example-dental"/>
                    </entry>
                </section>
                <section>
                    <title value="History of Present Illness Section"/>
                    <code>
                        <coding>
                            <system value="http://loinc.org"/>
                            <code value="10164-2"/>
                            <display value="History of Present illness Narrative"/>
                        </coding>
                    </code>
                    <text>
                        <status value="generated"/>
                        <div
                            xmlns="http://www.w3.org/1999/xhtml">
                            <p>The patient has not visited a dentist or received fluoride treatments in the past four years while away at college</p>
                        </div>
                    </text>
                </section>
                <section>
                    <title value="Problem Section"/>
                    <code>
                        <coding>
                            <system value="http://loinc.org"/>
                            <code value="11450-4"/>
                            <display value="Problem list - Reported"/>
                        </coding>
                    </code>
                    <text>
                        <status value="generated"/>
                        <div
                            xmlns="http://www.w3.org/1999/xhtml">
                            <p>Mild, Hypertension</p>
                            <p>Type 1 diabetes</p>
                            <p>Dental caries</p>
                            <p>Unable to chew</p>
                            <p>Teeth covered in plague</p>
                            <p>Toothache</p>
                            <p>Chronic periodontitis</p>
                            <p>Infection of tooth</p>
                            <p>At high risk for dental caries (finding)</p>
                        </div>
                    </text>
                    <entry>
                        <reference value="Condition/HTN-example"/>
                    </entry>
                    <entry>
                        <reference value="Condition/DM1-example"/>
                    </entry>
                    <entry>
                        <reference value="Condition/Dental-caries"/>
                    </entry>
                    <entry>
                        <reference value="Condition/no-chew"/>
                    </entry>
                    <entry>
                        <reference value="Condition/Dental-plaque-example"/>
                    </entry>
                    <entry>
                        <reference value="Condition/toothache-example"/>
                    </entry>
                    <entry>
                        <reference value="Condition/Chronic-periodontitis-example"/>
                    </entry>
                    <entry>
                        <reference value="Condition/Tooth-infection18"/>
                    </entry>
                    <entry>
                        <reference value="Condition/Caries-risk"/>
                    </entry>
                </section>
                <section>
                    <title value="Medication Section"/>
                    <code>
                        <coding>
                            <system value="http://loinc.org"/>
                            <code value="10160-0"/>
                            <display value="History of Medication use Narrative"/>
                        </coding>
                    </code>
                    <text>
                        <status value="generated"/>
                        <div
                            xmlns="http://www.w3.org/1999/xhtml">
                            <table>
                                <tr>
                                    <td>
                                        <b>Medication</b>
                                    </td>
                                    <td>
                                        <b>Directions</b>
                                    </td>
                                    <td>
                                        <b>Start Date</b>
                                    </td>
                                    <td>
                                        <b>Status</b>
                                    </td>
                                    <td>
                                        <b>Indications</b>
                                    </td>
                                    <td>
                                        <b>Fill Instructions</b>
                                    </td>
                                </tr>
                                <tr>
                                    <td>erythromycin 500 mg</td>
                                    <td>Take 1 tablet every six hours X10 days</td>
                                    <td/>
                                    <td>Active</td>
                                    <td/>
                                    <td/>
                                </tr>
                                <tr>
                                    <td>ibuprofen (OTC)  200 mg tab</td>
                                    <td>Take 2-3 tablets every 8 hours as needed for pain</td>
                                    <td>Take 2-3 tablets every 8 hours as needed for pain</td>
                                    <td/>
                                    <td>Active</td>
                                    <td/>
                                    <td/>
                                </tr>
                                <tr>
                                    <td>acetaminophen (OTC) 325 mg</td>
                                    <td>Take 2 tablets every 4-6 hours as needed for pain</td>
                                    <td/>
                                    <td>Active</td>
                                    <td/>
                                    <td/>
                                </tr>
                                <tr>
                                    <td>Lisinopril 10 mg tab</td>
                                    <td>1 tab once a day</td>
                                    <td/>
                                    <td>Active</td>
                                    <td/>
                                    <td/>
                                </tr>
                            </table>
                        </div>
                    </text>
                    <entry>
                        <reference value="MedicationRequest/erythromycin-medreq-2"/>
                    </entry>
                    <entry>
                        <reference value="MedicationRequest/Ibuprofen-medreq-2"/>
                    </entry>
                    <entry>
                        <reference value="MedicationRequest/Tylenol-med-dental"/>
                    </entry>
                    <entry>
                        <reference value="MedicationRequest/Lisinopril-medreq"/>
                    </entry>
                </section>
                <section>
                    <title value="Assessment Section"/>
                    <code>
                        <coding>
                            <system value="http://loinc.org"/>
                            <code value="51848-0"/>
                            <display value="Evaluation note"/>
                        </coding>
                    </code>
                    <text>
                        <status value="generated"/>
                        <div
                            xmlns="http://www.w3.org/1999/xhtml">
                            <p> Patient reports inability to chew on left side due to pain and
        sensitivity, a condition that has increased in severity in the two days
        since his medical appointment </p>
                            <p> Significant decay on the left lower second molar (tooth #18)
         with signs of infection  </p>
                            <p> Early signs of a caries lesion (decay) on the right upper
        lateral incisor (tooth #7) </p>
                            <p> Recommend an extraction of the left lower second molar(tooth
        #18) and a restoration on the right upper lateral incisor (tooth #7) due
        to a caries lesion </p>
                        </div>
                    </text>
                </section>
                <section>
                    <title value="Immunizations Section"/>
                    <code>
                        <coding>
                            <system value="http://loinc.org"/>
                            <code value="11369-6"/>
                            <display value="History of Immunization Narrative"/>
                        </coding>
                    </code>
                    <text>
                        <status value="generated"/>
                        <div
                            xmlns="http://www.w3.org/1999/xhtml">
                            <table border="1" width="100%">
                                <thead>
                                    <tr>
                                        <th>Vaccine</th>
                                        <th>Date</th>
                                        <th>Status</th>
                                    </tr>
                                </thead>
                                <tbody>
                                    <tr>
                                        <td>
              Hepatitis B vaccine
            </td>
                                        <td>January 4, 2020</td>
                                        <td>Completed</td>
                                    </tr>
                                </tbody>
                            </table>
                        </div>
                    </text>
                    <entry>
                        <reference value="Immunization/imm-1"/>
                    </entry>
                </section>
                <section>
                    <title value="Medical Equipment Section"/>
                    <code>
                        <coding>
                            <system value="http://loinc.org"/>
                            <code value="46264-8"/>
                            <display value="History of medical device use"/>
                        </coding>
                    </code>
                    <text>
                        <status value="generated"/>
                        <div
                            xmlns="http://www.w3.org/1999/xhtml">
                            <table border="1" width="100%">
                                <thead>
                                    <tr>
                                        <th>Device Type</th>
                                        <th>Procedure</th>
                                        <th>Implant Date</th>
                                    </tr>
                                </thead>
                                <tbody>
                                    <tr>
                                        <td>Insulin Pump</td>
                                        <td>Insertion of insulin pump (procedure)</td>
                                        <td>November 3, 2013</td>
                                    </tr>
                                </tbody>
                            </table>
                        </div>
                    </text>
                    <entry>
                        <reference value="Procedure/Insulin-pump-insertion"/>
                    </entry>
                </section>
                <section>
                    <title value="Plan of Treatment Section"/>
                    <code>
                        <coding>
                            <system value="http://loinc.org"/>
                            <code value="18776-5"/>
                            <display value="Plan of care note"/>
                        </coding>
                    </code>
                    <text>
                        <status value="generated"/>
                        <div
                            xmlns="http://www.w3.org/1999/xhtml">
                            <table border="1" width="100%">
                                <thead>
                                    <tr>
                                        <th>Date</th>
                                        <th>Code</th>
                                        <th>Description</th>
                                        <th>Mouth Location</th>
                                    </tr>
                                </thead>
                                <tbody>
                                    <tr>
                                        <td>Feb 23, 2020</td>
                                        <td>D7140</td>
                                        <td>Extraction, erupted tooth or exposed root (elevation and/or
                forceps removal)</td>
                                        <td>Tooth #18</td>
                                    </tr>
                                    <tr>
                                        <td>Mar 3, 2020</td>
                                        <td>D1352</td>
                                        <td>Preventive resin restoration in a moderate to high caries
                risk patient-permanent tooth</td>
                                        <td>Tooth #7</td>
                                    </tr>
                                    <tr>
                                        <td>Mar 10, 2020</td>
                                        <td>D0150</td>
                                        <td>comprehensive oral evaluation - new or established
                patient</td>
                                        <td>N/A</td>
                                    </tr>
                                    <tr>
                                        <td>Mar 10, 2020</td>
                                        <td>D1110</td>
                                        <td>Prophylaxis - Adult</td>
                                        <td>N/A</td>
                                    </tr>
                                    <tr>
                                        <td>Mar 10, 2020</td>
                                        <td>D0210</td>
                                        <td>Full mouth radiographic survey</td>
                                        <td>N/A</td>
                                    </tr>
                                </tbody>
                            </table>
                        </div>
                    </text>
                    <entry>
                        <reference value="ServiceRequest/Dental-extraction-example"/>
                    </entry>
                    <entry>
                        <reference value="ServiceRequest/Resin-restore-example"/>
                    </entry>
                    <entry>
                        <reference value="ServiceRequest/prophylaxis-example"/>
                    </entry>
                    <entry>
                        <reference value="ServiceRequest/Radiograph-survey"/>
                    </entry>
                </section>
                <section>
                    <title value="Procedures Section"/>
                    <code>
                        <coding>
                            <system value="http://loinc.org"/>
                            <code value="47519-4"/>
                            <display value="History of Procedures Document"/>
                        </coding>
                    </code>
                    <text>
                        <status value="generated"/>
                        <div
                            xmlns="http://www.w3.org/1999/xhtml">
                            <table border="1" width="100%">
                                <thead>
                                    <tr>
                                        <th>Date</th>
                                        <th>Code</th>
                                        <th>Description</th>
                                        <th>Mouth Location</th>
                                    </tr>
                                </thead>
                                <tbody>
                                    <tr>
                                        <td>Feb 16, 2020</td>
                                        <td>D1206</td>
                                        <td>topical application of fluoride varnish</td>
                                        <td>N/A</td>
                                    </tr>
                                </tbody>
                            </table>
                        </div>
                    </text>
                    <entry>
                        <reference value="Procedure/Dental-flouride-tx-example"/>
                    </entry>
                </section>
                <section>
                    <title value="Reason for Visit Section"/>
                    <code>
                        <coding>
                            <system value="http://loinc.org"/>
                            <code value="29299-5"/>
                            <display value="Reason for visit"/>
                        </coding>
                    </code>
                    <text>
                        <status value="generated"/>
                        <div
                            xmlns="http://www.w3.org/1999/xhtml">
                            <p>Patient referred for evaluation and treatment for toothache lower left</p>
                        </div>
                    </text>
                </section>
                <section>
                    <title value="Social History Section"/>
                    <code>
                        <coding>
                            <system value="http://loinc.org"/>
                            <code value="29762-2"/>
                            <display value="Social history Narrative"/>
                        </coding>
                    </code>
                    <text>
                        <status value="generated"/>
                        <div
                            xmlns="http://www.w3.org/1999/xhtml">
                            <table>
                                <tr>
                                    <td>
                                        <b>Social History Element</b>
                                    </td>
                                    <td>
                                        <b>Description</b>
                                    </td>
                                    <td>
                                        <b>Effective Dates</b>
                                    </td>
                                </tr>
                                <tr>
                                    <td>Smoking Status - Meaningful Use</td>
                                    <td>Never smoked tobacco</td>
                                    <td>Feb 14, 2020</td>
                                </tr>
                                <tr>
                                    <td>Highest Education Level</td>
                                    <td>College Education</td>
                                    <td>2005/05/01 - 2010/02/28</td>
                                </tr>
                                <tr>
                                    <td>Employment</td>
                                    <td>Accountaint, Full Time</td>
                                    <td>2005/05/01 - 2010/02/28</td>
                                </tr>
                            </table>
                        </div>
                    </text>
                    <entry>
                        <reference value="Observation/Smoker-obs-example-dental"/>
                    </entry>
                    <entry>
                        <reference value="Observation/Education-level-example-dental"/>
                    </entry>
                    <entry>
                        <reference value="Observation/Present-job-example-dental"/>
                    </entry>
                </section>
                <section>
                    <title value="Vital Signs Section"/>
                    <code>
                        <coding>
                            <system value="http://loinc.org"/>
                            <code value="8716-3"/>
                            <display value="Vital signs"/>
                        </coding>
                    </code>
                    <text>
                        <status value="generated"/>
                        <div
                            xmlns="http://www.w3.org/1999/xhtml">
                            <table border="1" width="100%">
                                <thead>
                                    <tr>
                                        <th>Observation Type</th>
                                        <th>Value</th>
                                        <th>Units</th>
                                    </tr>
                                </thead>
                                <tbody>
                                    <tr>
                                        <td>Body Temperature</td>
                                        <td>99</td>
                                        <td>[degF]</td>
                                    </tr>
                                    <tr>
                                        <td>Heart Rate</td>
                                        <td>82</td>
                                        <td>/min</td>
                                    </tr>
                                    <tr>
                                        <td>Blood Pressure - Diastolic</td>
                                        <td>80</td>
                                        <td>mmHg</td>
                                    </tr>
                                    <tr>
                                        <td>Blood Pressure - Systolic</td>
                                        <td>120</td>
                                        <td>mmHg</td>
                                    </tr>
                                </tbody>
                            </table>
                        </div>
                    </text>
                    <entry>
                        <reference value="Observation/body-temperature"/>
                    </entry>
                    <entry>
                        <reference value="Observation/heart-rate"/>
                    </entry>
                    <entry>
                        <reference value="Observation/blood-pressure"/>
                    </entry>
                </section>
                <section>
                    <title value="Instructions Section"/>
                    <code>
                        <coding>
                            <system value="http://loinc.org"/>
                            <code value="69730-0"/>
                            <display value="Instructions"/>
                        </coding>
                    </code>
                    <text>
                        <status value="generated"/>
                        <div
                            xmlns="http://www.w3.org/1999/xhtml">
                            <p>Patient educated on the benefits of using a fluoride toothpaste, daily
          flossing, and bi-annual routine dental cleaning visits.</p>
                        </div>
                    </text>
                    <entry>
                        <reference value="Communication/dental-education2"/>
                    </entry>
                </section>
                <section>
                    <title value="Payers Section"/>
                    <code>
                        <coding>
                            <system value="http://loinc.org"/>
                            <code value="48768-6"/>
                            <display value="Payment sources Document"/>
                        </coding>
                    </code>
                    <text>
                        <status value="generated"/>
                        <div
                            xmlns="http://www.w3.org/1999/xhtml">
                            <p>Aetna Comprehensive Medical /Dental Insurance</p>
                        </div>
                    </text>
                    <entry>
                        <reference value="Coverage/Dental-Aetna"/>
                    </entry>
                </section>
                <section>
                    <title value="Dental Findings Section"/>
                    <code>
                        <coding>
                            <system value="http://loinc.org"/>
                            <code value="8704-9"/>
                            <display value="Physical findings of Mouth and Throat and Teeth"/>
                        </coding>
                    </code>
                    <text>
                        <status value="generated"/>
                        <div
                            xmlns="http://www.w3.org/1999/xhtml">
                            <table border="1" width="100%">
                                <thead>
                                    <tr>
                                        <th>Finding Type</th>
                                        <th>Value</th>
                                        <th>Location</th>
                                    </tr>
                                </thead>
                                <tbody>
                                    <tr>
                                        <td>Problem</td>
                                        <td>Dental Caries</td>
                                        <td>Tooth #18</td>
                                    </tr>
                                    <tr>
                                        <td>Problem</td>
                                        <td>Infection of Tooth</td>
                                        <td>Tooth #18</td>
                                    </tr>
                                    <tr>
                                        <td>Problem</td>
                                        <td>Dental Caries</td>
                                        <td>Tooth #7</td>
                                    </tr>
                                    <tr>
                                        <td>Result</td>
                                        <td>Overjet</td>
                                        <td>3mm</td>
                                    </tr>
                                </tbody>
                            </table>
                        </div>
                    </text>
                    <entry>
                        <reference value="Condition/Mandibular-perm18-example"/>
                    </entry>
                    <entry>
                        <reference value="Condition/Tooth-infection18"/>
                    </entry>
                    <entry>
                        <reference value="Condition/Maxillary-perm7-example"/>
                    </entry>
                    <entry>
                        <reference value="Observation/Overjet"/>
                    </entry>
                </section>
            </Composition>
        </resource>
    </entry>
    <entry>
        <fullUrl value="http://example.org/fhir/us/dental-data-exchange/Patient/example-dental"/>
        <resource>
            <Patient>
                <id value="example-dental"/>
                <text>
                    <status value="generated"/>
                    <div
                        xmlns="http://www.w3.org/1999/xhtml">
                        <div class="hapiHeaderText">Patient 
              
                            
                            
                            
                            <b>A </b>
                        </div>
                        <table class="hapiPropertyTable">
                            <tbody>
                                <tr>
                                    <td>Identifier</td>
                                    <td>5152020</td>
                                </tr>
                                <tr>
                                    <td>Address</td>
                                    <td>
                                        <span>123 Test Dr. </span>
                                        <br/>
                                        <span>Denver </span>
                                        <span>CO </span>
                                        <span>US </span>
                                    </td>
                                </tr>
                                <tr>
                                    <td>Date of birth</td>
                                    <td>
                                        <span>01 January 1990</span>
                                    </td>
                                </tr>
                            </tbody>
                        </table>
                    </div>
                </text>
                <extension url="http://hl7.org/fhir/us/core/StructureDefinition/us-core-race">
                    <extension url="ombCategory">
                        <valueCoding>
                            <system value="urn:oid:2.16.840.1.113883.6.238"/>
                            <code value="2106-3"/>
                            <display value="White"/>
                        </valueCoding>
                    </extension>
                    <extension url="detailed">
                        <valueCoding>
                            <system value="urn:oid:2.16.840.1.113883.6.238"/>
                            <code value="1516-4"/>
                            <display value="Zuni"/>
                        </valueCoding>
                    </extension>
                    <extension url="text">
                        <valueString value="Mixed"/>
                    </extension>
                </extension>
                <extension url="http://hl7.org/fhir/us/core/StructureDefinition/us-core-ethnicity">
                    <extension url="ombCategory">
                        <valueCoding>
                            <system value="urn:oid:2.16.840.1.113883.6.238"/>
                            <code value="2135-2"/>
                            <display value="Hispanic or Latino"/>
                        </valueCoding>
                    </extension>
                    <extension url="text">
                        <valueString value="Hispanic or Latino"/>
                    </extension>
                </extension>
                <extension url="http://hl7.org/fhir/us/core/StructureDefinition/us-core-birthsex">
                    <valueCode value="M"/>
                </extension>
                <identifier>
                    <use value="usual"/>
                    <type>
                        <coding>
                            <system value="http://terminology.hl7.org/CodeSystem/v2-0203"/>
                            <code value="MR"/>
                            <display value="Medical Record Number"/>
                        </coding>
                        <text value="Medical Record Number"/>
                    </type>
                    <system value="http://clinic.goodhealth.org"/>
                    <value value="5152020"/>
                </identifier>
                <active value="true"/>
                <name>
                    <family value="A"/>
                    <given value="Patient"/>
                </name>
                <telecom>
                    <system value="phone"/>
                    <value value="123-456-7890"/>
                    <use value="home"/>
                </telecom>
                <telecom>
                    <system value="email"/>
                    <value value="testA@email.com"/>
                </telecom>
                <gender value="male"/>
                <birthDate value="1990-01-01"/>
                <address>
                    <line value="123 Test Dr."/>
                    <city value="Denver"/>
                    <state value="CO"/>
                    <postalCode value="80204"/>
                    <country value="US"/>
                </address>
            </Patient>
        </resource>
    </entry>
    <entry>
        <fullUrl value="http://example.org/fhir/us/dental-data-exchange/Encounter/Med-visit-1"/>
        <resource>
            <Encounter>
                <id value="Med-visit-1"/>
                <status value="finished"/>
                <class>
                    <system value="http://terminology.hl7.org/CodeSystem/v3-ActCode"/>
                    <code value="AMB"/>
                    <display value="ambulatory"/>
                </class>
                <type>
                    <coding>
                        <system value="http://www.ama-assn.org/go/cpt"/>
                        <code value="99201"/>
                        <display value="Level 1 New Patient Office Visit"/>
                    </coding>
                    <text value="Office Visit"/>
                </type>
                <priority>
                    <coding>
                        <system value="http://terminology.hl7.org/CodeSystem/v3-ActPriority"/>
                        <code value="R"/>
                        <display value="routine"/>
                    </coding>
                </priority>
                <subject>
                    <reference value="Patient/example-dental"/>
                </subject>
                <period>
                    <start value="2020-02-14T15:00:14-05:00"/>
                    <end value="2020-02-14T15:30:14-05:00"/>
                </period>
            </Encounter>
        </resource>
    </entry>
    <entry>
        <fullUrl value="http://example.org/fhir/us/dental-data-exchange/PractitionerRole/PractitionerRole-M"/>
        <resource>
            <PractitionerRole>
                <id value="PractitionerRole-M"/>
                <practitioner>
                    <reference value="Practitioner/practitioner-M"/>
                    <display value="Dr. John M"/>
                </practitioner>
                <organization>
                    <reference value="Organization/GHC-organization"/>
                    <display value="Good Health Clinic"/>
                </organization>
                <specialty>
                    <coding>
                        <system value="http://snomed.info/sct"/>
                        <code value="394814009"/>
                        <display value="General practice (specialty)"/>
                    </coding>
                </specialty>
                <telecom>
                    <system value="phone"/>
                    <value value="5555557777"/>
                </telecom>
            </PractitionerRole>
        </resource>
    </entry>
    <entry>
        <fullUrl value="http://example.org/fhir/us/dental-data-exchange/Practitioner/practitioner-M"/>
        <resource>
            <Practitioner>
                <id value="practitioner-M"/>
                <identifier>
                    <system value="http://hl7.org/fhir/sid/us-npi"/>
                    <value value="1234569999"/>
                </identifier>
                <name>
                    <family value="M"/>
                    <given value="John"/>
                    <prefix value="Dr"/>
                </name>
                <telecom>
                    <system value="phone"/>
                    <value value="303-303-6443"/>
                    <use value="work"/>
                </telecom>
                <gender value="male"/>
                <birthDate value="1975-06-09"/>
            </Practitioner>
        </resource>
    </entry>
    <entry>
        <fullUrl value="http://example.org/fhir/us/dental-data-exchange/Organization/GHC-organization"/>
        <resource>
            <Organization>
                <id value="GHC-organization"/>
                <identifier>
                    <system value="http://hl7.org/fhir/sid/us-npi"/>
                    <value value="1316452725"/>
                </identifier>
                <active value="true"/>
                <type>
                    <coding>
                        <system value="http://terminology.hl7.org/CodeSystem/organization-type"/>
                        <code value="prov"/>
                        <display value="Healthcare Provider"/>
                    </coding>
                </type>
                <name value="Good Health Clinic"/>
                <telecom>
                    <system value="phone"/>
                    <value value="(+1) 555-677-7777"/>
                </telecom>
                <telecom>
                    <system value="email"/>
                    <value value="customer-service@GHclinic.org"/>
                </telecom>
                <address>
                    <line value="7551 W Alameda Ave"/>
                    <city value="Lakewood"/>
                    <state value="CO"/>
                    <postalCode value="80226"/>
                    <country value="USA"/>
                </address>
            </Organization>
        </resource>
    </entry>
    <entry>
        <fullUrl value="http://example.org/fhir/us/dental-data-exchange/AllergyIntolerance/Allergy-example-dental"/>
        <resource>
            <AllergyIntolerance>
                <id value="Allergy-example-dental"/>
                <clinicalStatus>
                    <coding>
                        <system value="http://terminology.hl7.org/CodeSystem/allergyintolerance-clinical"/>
                        <code value="active"/>
                    </coding>
                </clinicalStatus>
                <verificationStatus>
                    <coding>
                        <system value="http://terminology.hl7.org/CodeSystem/allergyintolerance-verification"/>
                        <code value="confirmed"/>
                    </coding>
                </verificationStatus>
                <category value="medication"/>
                <criticality value="high"/>
                <code>
                    <coding>
                        <system value="http://www.nlm.nih.gov/research/umls/rxnorm"/>
                        <code value="7980"/>
                        <display value="Penicillin G"/>
                    </coding>
                    <text value="Penicillin G (Ingredient)"/>
                </code>
                <patient>
                    <reference value="Patient/example-dental"/>
                    <display value="Patient A"/>
                </patient>
                <onsetDateTime value="1998-05-01"/>
            </AllergyIntolerance>
        </resource>
    </entry>
    <entry>
        <fullUrl value="http://example.org/fhir/us/dental-data-exchange/MedicationRequest/Lisinopril-medreq"/>
        <resource>
            <MedicationRequest>
                <id value="Lisinopril-medreq"/>
                <status value="active"/>
                <intent value="plan"/>
                <medicationReference>
                    <reference value="Medication/Lisinopril-med-example"/>
                </medicationReference>
                <subject>
                    <reference value="Patient/example-dental"/>
                    <display value="Patient A"/>
                </subject>
                <authoredOn value="2020-02-14"/>
                <requester>
                    <reference value="Practitioner/practitioner-M"/>
                    <display value="Dr. John M, MD"/>
                </requester>
                <reasonReference>
                    <reference value="Condition/HTN-example"/>
                </reasonReference>
                <dosageInstruction>
                    <text value="Take 1 tab once a day"/>
                    <timing>
                        <repeat>
                            <boundsPeriod>
                                <start value="2020-01-03"/>
                            </boundsPeriod>
                        </repeat>
                    </timing>
                    <route>
                        <coding>
                            <system value="http://snomed.info/sct"/>
                            <code value="26643006"/>
                            <display value="Oral use"/>
                        </coding>
                    </route>
                </dosageInstruction>
            </MedicationRequest>
        </resource>
    </entry>
    <entry>
        <fullUrl value="http://example.org/fhir/us/dental-data-exchange/Medication/Lisinopril-med-example"/>
        <resource>
            <Medication>
                <id value="Lisinopril-med-example"/>
                <text>
                    <status value="generated"/>
                    <div
                        xmlns="http://www.w3.org/1999/xhtml">
                        <div class="hapiHeaderText">Lisinopril 10 mg tab</div>
                    </div>
                </text>
                <code>
                    <coding>
                        <system value="http://www.nlm.nih.gov/research/umls/rxnorm"/>
                        <code value="314076"/>
                        <display value="Lisinopril 10 mg Oral Tablet"/>
                    </coding>
                    <text value="Lisinopril 10 mg Oral Tablet"/>
                </code>
            </Medication>
        </resource>
    </entry>
    <entry>
        <fullUrl value="http://example.org/fhir/us/dental-data-exchange/Condition/HTN-example"/>
        <resource>
            <Condition>
                <id value="HTN-example"/>
                <clinicalStatus>
                    <coding>
                        <system value="http://terminology.hl7.org/CodeSystem/condition-clinical"/>
                        <code value="active"/>
                        <display value="Active"/>
                    </coding>
                    <text value="Active"/>
                </clinicalStatus>
                <verificationStatus>
                    <coding>
                        <system value="http://terminology.hl7.org/CodeSystem/condition-ver-status"/>
                        <code value="confirmed"/>
                        <display value="Confirmed"/>
                    </coding>
                    <text value="Confirmed"/>
                </verificationStatus>
                <category>
                    <coding>
                        <system value="http://terminology.hl7.org/CodeSystem/condition-category"/>
                        <code value="problem-list-item"/>
                        <display value="Problem List Item"/>
                    </coding>
                    <text value="Problem"/>
                </category>
                <code>
                    <coding>
                        <system value="http://snomed.info/sct"/>
                        <code value="38341003"/>
                        <display value="High blood pressure"/>
                    </coding>
                    <coding>
                        <system value="http://www.ada.org/snodent"/>
                        <code value="175027D"/>
                        <display value="High blood pressure"/>
                    </coding>
                    <text value="Hypertensive disorder (disorder)"/>
                </code>
                <subject>
                    <reference value="Patient/example-dental"/>
                    <display value="Patient A"/>
                </subject>
                <onsetDateTime value="2013-07-06"/>
                <asserter>
                    <reference value="Practitioner/practitioner-UNK"/>
                </asserter>
            </Condition>
        </resource>
    </entry>
    <entry>
        <fullUrl value="http://example.org/fhir/us/dental-data-exchange/Condition/DM1-example"/>
        <resource>
            <Condition>
                <id value="DM1-example"/>
                <clinicalStatus>
                    <coding>
                        <system value="http://terminology.hl7.org/CodeSystem/condition-clinical"/>
                        <code value="active"/>
                        <display value="Active"/>
                    </coding>
                    <text value="Active"/>
                </clinicalStatus>
                <verificationStatus>
                    <coding>
                        <system value="http://terminology.hl7.org/CodeSystem/condition-ver-status"/>
                        <code value="confirmed"/>
                        <display value="Confirmed"/>
                    </coding>
                    <text value="Confirmed"/>
                </verificationStatus>
                <category>
                    <coding>
                        <system value="http://terminology.hl7.org/CodeSystem/condition-category"/>
                        <code value="problem-list-item"/>
                        <display value="Problem List Item"/>
                    </coding>
                    <text value="Problem"/>
                </category>
                <code>
                    <coding>
                        <system value="http://snomed.info/sct"/>
                        <code value="46635009"/>
                        <display value="Diabetes mellitus type I"/>
                    </coding>
                    <coding>
                        <system value="http://www.ada.org/snodent"/>
                        <code value="175321D"/>
                        <display value="Diabetes mellitus type I"/>
                    </coding>
                    <text value="Diabetes mellitus type I"/>
                </code>
                <subject>
                    <reference value="Patient/example-dental"/>
                    <display value="Patient A"/>
                </subject>
                <onsetDateTime value="2013-07-06"/>
                <asserter>
                    <reference value="Practitioner/practitioner-UNK"/>
                </asserter>
            </Condition>
        </resource>
    </entry>
    <entry>
        <fullUrl value="http://example.org/fhir/us/dental-data-exchange/Condition/Dental-plaque-example"/>
        <resource>
            <Condition>
                <id value="Dental-plaque-example"/>
                <clinicalStatus>
                    <coding>
                        <system value="http://terminology.hl7.org/CodeSystem/condition-clinical"/>
                        <code value="active"/>
                        <display value="Active"/>
                    </coding>
                    <text value="Active"/>
                </clinicalStatus>
                <verificationStatus>
                    <coding>
                        <system value="http://terminology.hl7.org/CodeSystem/condition-ver-status"/>
                        <code value="confirmed"/>
                        <display value="Confirmed"/>
                    </coding>
                    <text value="Confirmed"/>
                </verificationStatus>
                <category>
                    <coding>
                        <system value="http://hl7.org/fhir/us/core/CodeSystem/condition-category"/>
                        <code value="health-concern"/>
                        <display value="Health Concern"/>
                    </coding>
                    <text value="Health Concern"/>
                </category>
                <code>
                    <coding>
                        <system value="http://snomed.info/sct"/>
                        <code value="276453000"/>
                        <display value="Teeth covered in plaque (finding)"/>
                    </coding>
                    <coding>
                        <system value="http://www.ada.org/snodent"/>
                        <code value="108723D"/>
                        <display value="Teeth covered in plaque (finding)"/>
                    </coding>
                    <text value="Teeth covered in plaque (finding)"/>
                </code>
                <subject>
                    <reference value="Patient/example-dental"/>
                    <display value="Patient A"/>
                </subject>
                <onsetDateTime value="2013-07-06"/>
                <asserter>
                    <reference value="Practitioner/practitioner-UNK"/>
                </asserter>
            </Condition>
        </resource>
    </entry>
    <entry>
        <fullUrl value="http://example.org/fhir/us/dental-data-exchange/Practitioner/practitioner-UNK"/>
        <resource>
            <Practitioner>
                <id value="practitioner-UNK"/>
                <identifier>
                    <system value="http://hl7.org/fhir/sid/us-npi"/>
                    <value value="555555555"/>
                </identifier>
                <name>
                    <family value="UNK">
                        <extension url="http://hl7.org/fhir/StructureDefinition/data-absent-reason">
                            <valueCode value="unknown"/>
                        </extension>
                    </family>
                </name>
            </Practitioner>
        </resource>
    </entry>
    <entry>
        <fullUrl value="http://example.org/fhir/us/dental-data-exchange/Condition/toothache-example"/>
        <resource>
            <Condition>
                <id value="toothache-example"/>
                <clinicalStatus>
                    <coding>
                        <system value="http://terminology.hl7.org/CodeSystem/condition-clinical"/>
                        <code value="active"/>
                        <display value="Active"/>
                    </coding>
                    <text value="Active"/>
                </clinicalStatus>
                <verificationStatus>
                    <coding>
                        <system value="http://terminology.hl7.org/CodeSystem/condition-ver-status"/>
                        <code value="confirmed"/>
                        <display value="Confirmed"/>
                    </coding>
                    <text value="Confirmed"/>
                </verificationStatus>
                <category>
                    <coding>
                        <system value="http://hl7.org/fhir/us/core/CodeSystem/condition-category"/>
                        <code value="health-concern"/>
                        <display value="Health Concern"/>
                    </coding>
                    <text value="Health Concern"/>
                </category>
                <code>
                    <coding>
                        <system value="http://snomed.info/sct"/>
                        <code value="27355003"/>
                        <display value="Toothache (finding)"/>
                    </coding>
                    <coding>
                        <system value="http://www.ada.org/snodent"/>
                        <code value="131687D"/>
                        <display value="Toothache (finding)"/>
                    </coding>
                    <text value="Toothache (finding)"/>
                </code>
                <subject>
                    <reference value="Patient/example-dental"/>
                    <display value="Patient A"/>
                </subject>
                <onsetDateTime value="2020-02-14"/>
            </Condition>
        </resource>
    </entry>
    <entry>
        <fullUrl value="http://example.org/fhir/us/dental-data-exchange/Condition/Swollen-gums-example"/>
        <resource>
            <Condition>
                <id value="Swollen-gums-example"/>
                <clinicalStatus>
                    <coding>
                        <system value="http://terminology.hl7.org/CodeSystem/condition-clinical"/>
                        <code value="active"/>
                        <display value="Active"/>
                    </coding>
                    <text value="Active"/>
                </clinicalStatus>
                <verificationStatus>
                    <coding>
                        <system value="http://terminology.hl7.org/CodeSystem/condition-ver-status"/>
                        <code value="confirmed"/>
                        <display value="Confirmed"/>
                    </coding>
                    <text value="Confirmed"/>
                </verificationStatus>
                <category>
                    <coding>
                        <system value="http://hl7.org/fhir/us/core/CodeSystem/condition-category"/>
                        <code value="health-concern"/>
                        <display value="Health Concern"/>
                    </coding>
                    <text value="Health Concern"/>
                </category>
                <category>
                    <coding>
                        <system value="http://hl7.org/fhir/us/dental-data-exchange/CodeSystem/dental-category"/>
                        <code value="dental"/>
                        <display value="Dental"/>
                    </coding>
                </category>
                <code>
                    <coding>
                        <system value="http://www.ada.org/snodent"/>
                        <code value="148393D"/>
                        <display value="Swollen gums (finding)"/>
                    </coding>
                    <coding>
                        <system value="http://snomed.info/sct"/>
                        <code value="309685001"/>
                        <display value="Swollen gums (finding)"/>
                    </coding>
                    <text value="Swollen gums (finding)"/>
                </code>
                <subject>
                    <reference value="Patient/example-dental"/>
                    <display value="Patient A"/>
                </subject>
                <onsetDateTime value="2020-02-14"/>
            </Condition>
        </resource>
    </entry>
    <entry>
        <fullUrl value="http://example.org/fhir/us/dental-data-exchange/Condition/Bleeding-gums-example"/>
        <resource>
            <Condition>
                <id value="Bleeding-gums-example"/>
                <clinicalStatus>
                    <coding>
                        <system value="http://terminology.hl7.org/CodeSystem/condition-clinical"/>
                        <code value="active"/>
                        <display value="Active"/>
                    </coding>
                    <text value="Active"/>
                </clinicalStatus>
                <verificationStatus>
                    <coding>
                        <system value="http://terminology.hl7.org/CodeSystem/condition-ver-status"/>
                        <code value="confirmed"/>
                        <display value="Confirmed"/>
                    </coding>
                    <text value="Confirmed"/>
                </verificationStatus>
                <category>
                    <coding>
                        <system value="http://hl7.org/fhir/us/core/CodeSystem/condition-category"/>
                        <code value="health-concern"/>
                        <display value="Health Concern"/>
                    </coding>
                    <text value="Health Concern"/>
                </category>
                <category>
                    <coding>
                        <system value="http://hl7.org/fhir/us/dental-data-exchange/CodeSystem/dental-category"/>
                        <code value="dental"/>
                        <display value="Dental"/>
                    </coding>
                </category>
                <code>
                    <coding>
                        <system value="http://www.ada.org/snodent"/>
                        <code value="148393D"/>
                        <display value="Bleeding gums"/>
                    </coding>
                    <coding>
                        <system value="http://snomed.info/sct"/>
                        <code value="86276007"/>
                        <display value="Bleeding gums"/>
                    </coding>
                    <text value="Bleeding gums"/>
                </code>
                <subject>
                    <reference value="Patient/example-dental"/>
                    <display value="Patient A"/>
                </subject>
                <onsetDateTime value="2020-02-14"/>
            </Condition>
        </resource>
    </entry>
    <entry>
        <fullUrl value="http://example.org/fhir/us/dental-data-exchange/Condition/Caries-risk"/>
        <resource>
            <Condition>
                <id value="Caries-risk"/>
                <clinicalStatus>
                    <coding>
                        <system value="http://terminology.hl7.org/CodeSystem/condition-clinical"/>
                        <code value="active"/>
                        <display value="Active"/>
                    </coding>
                    <text value="Active"/>
                </clinicalStatus>
                <verificationStatus>
                    <coding>
                        <system value="http://terminology.hl7.org/CodeSystem/condition-ver-status"/>
                        <code value="confirmed"/>
                        <display value="Confirmed"/>
                    </coding>
                    <text value="Confirmed"/>
                </verificationStatus>
                <category>
                    <coding>
                        <system value="http://terminology.hl7.org/CodeSystem/condition-category"/>
                        <code value="problem-list-item"/>
                        <display value="Problem List Item"/>
                    </coding>
                    <text value="Problem"/>
                </category>
                <category>
                    <coding>
                        <system value="http://hl7.org/fhir/us/dental-data-exchange/CodeSystem/dental-category"/>
                        <code value="dental"/>
                        <display value="Dental"/>
                    </coding>
                </category>
                <code>
                    <coding>
                        <system value="http://www.ada.org/snodent"/>
                        <code value="179051D"/>
                        <display value="At high risk for dental caries (finding)"/>
                    </coding>
                    <coding>
                        <system value="http://snomed.info/sct"/>
                        <code value="609402003"/>
                        <display value="At high risk for dental caries (finding)"/>
                    </coding>
                    <text value="At high risk for dental caries (finding)"/>
                </code>
                <subject>
                    <reference value="Patient/example-dental"/>
                    <display value="Patient A"/>
                </subject>
                <onsetDateTime value="2020-02-14"/>
            </Condition>
        </resource>
    </entry>
    <entry>
        <fullUrl value="http://example.org/fhir/us/dental-data-exchange/ServiceRequest/example-dental-referral-1"/>
        <resource>
            <ServiceRequest>
                <id value="example-dental-referral-1"/>
                <identifier>
                    <system value="urn:ietf:rfc:3986"/>
                    <value value="urn:uid:0c2aacfc-ce7d-4652-b9ea-7280ea21dec4"/>
                </identifier>
                <status value="active"/>
                <intent value="plan"/>
                <category>
                    <coding>
                        <system value="http://snomed.info/sct"/>
                        <code value="14736009"/>
                        <display value="History and physical examination with evaluation and management of patient (procedure)"/>
                    </coding>
                    <text value="Evaluation and management of patient (procedure)"/>
                </category>
                <priority value="asap"/>
                <code>
                    <coding>
                        <system value="http://snomed.info/sct"/>
                        <code value="103697008"/>
                        <display value="Patient referral for dental care (procedure)"/>
                    </coding>
                    <text value="Patient referral for dental care (procedure)"/>
                </code>
                <subject>
                    <reference value="Patient/example-dental"/>
                </subject>
                <requester>
                    <reference value="Practitioner/practitioner-M"/>
                </requester>
                <reasonReference>
                    <reference value="Condition/toothache-example"/>
                </reasonReference>
                <reasonReference>
                    <reference value="Condition/LLQP-example"/>
                </reasonReference>
                <reasonReference>
                    <reference value="Condition/Bleeding-gums-example"/>
                </reasonReference>
            </ServiceRequest>
        </resource>
    </entry>
    <entry>
        <fullUrl value="http://example.org/fhir/us/dental-data-exchange/Encounter/Comp-oral-eval"/>
        <resource>
            <Encounter>
                <id value="Comp-oral-eval"/>
                <status value="planned"/>
                <class>
                    <system value="http://terminology.hl7.org/CodeSystem/v3-ActCode"/>
                    <code value="AMB"/>
                    <display value="ambulatory"/>
                </class>
                <type>
                    <coding>
                      <system value="http://ada.org/cdt"/>
                        <code value="D0150"/>
                    </coding>
                    <text value="Comprehensive Oral Evaluation"/>
                </type>
                <priority>
                    <coding>
                        <system value="http://terminology.hl7.org/CodeSystem/v3-ActPriority"/>
                        <code value="R"/>
                        <display value="routine"/>
                    </coding>
                </priority>
                <subject>
                    <reference value="Patient/example-dental"/>
                </subject>
                <period>
                    <start value="2020-03-10T15:00:14-05:00"/>
                    <end value="2020-03-10T15:30:14-05:00"/>
                </period>
            </Encounter>
        </resource>
    </entry>
    <entry>
        <fullUrl value="http://example.org/fhir/us/dental-data-exchange/Immunization/imm-1"/>
        <resource>
            <Immunization>
                <id value="imm-1"/>
                <status value="completed"/>
                <vaccineCode>
                    <coding>
                        <system value="http://hl7.org/fhir/sid/cvx"/>
                        <code value="08"/>
                        <display value="hepatitis B vaccine, pediatric or pediatric/adolescent dosage"/>
                    </coding>
                </vaccineCode>
                <patient>
                    <reference value="Patient/example-dental"/>
                    <display value="Patient A"/>
                </patient>
                <occurrenceDateTime value="2020-01-04"/>
                <primarySource value="false"/>
            </Immunization>
        </resource>
    </entry>
    <entry>
        <fullUrl value="http://example.org/fhir/us/dental-data-exchange/Procedure/Insulin-pump-insertion"/>
        <resource>
            <Procedure>
                <id value="Insulin-pump-insertion"/>
                <identifier>
                    <system value="urn:ietf:rfc:3986"/>
                    <value value="urn:uuid:b2a737f2-2fdb-49c1-b097-dac173d07aff"/>
                </identifier>
                <status value="completed"/>
                <code>
                    <coding>
                        <system value="http://snomed.info/sct"/>
                        <code value="443263006"/>
                    </coding>
                    <text value="Insertion of insulin pump (procedure)"/>
                </code>
                <subject>
                    <reference value="Patient/example-dental"/>
                </subject>
                <performedDateTime value="2013-11-03"/>
            </Procedure>
        </resource>
    </entry>
    <entry>
        <fullUrl value="http://example.org/fhir/us/dental-data-exchange/Observation/Smoker-obs-example-dental"/>
        <resource>
            <Observation>
                <id value="Smoker-obs-example-dental"/>
                <status value="final"/>
                <category>
                    <coding>
                        <system value="http://terminology.hl7.org/CodeSystem/observation-category"/>
                        <code value="social-history"/>
                        <display value="Social History"/>
                    </coding>
                    <text value="Social History"/>
                </category>
                <code>
                    <coding>
                        <system value="http://loinc.org"/>
                        <code value="72166-2"/>
                        <display value="Tobacco smoking status"/>
                    </coding>
                    <text value="Tobacco smoking status"/>
                </code>
                <subject>
                    <reference value="Patient/example-dental"/>
                    <display value="Patient A"/>
                </subject>
                <issued value="2020-01-15T05:27:04Z"/>
                <valueCodeableConcept>
                    <coding>
                        <system value="http://snomed.info/sct"/>
                        <code value="266919005"/>
                        <display value="Never smoked tobacco (finding)"/>
                    </coding>
                    <text value="Never smoked tobacco (finding)"/>
                </valueCodeableConcept>
            </Observation>
        </resource>
    </entry>
    <entry>
        <fullUrl value="http://example.org/fhir/us/dental-data-exchange/Observation/Education-level-example-dental"/>
        <resource>
            <Observation>
                <id value="Education-level-example-dental"/>
                <status value="final"/>
                <code>
                    <coding>
                        <system value="http://loinc.org"/>
                        <code value="82589-3"/>
                        <display value="Highest Level of Education"/>
                    </coding>
                </code>
                <subject>
                    <reference value="Patient/example-dental"/>
                    <display value="Patient A"/>
                </subject>
                <effectivePeriod>
                    <start value="2012-01-01"/>
                    <end value="2016-01-01"/>
                </effectivePeriod>
                <valueCodeableConcept>
                    <coding>
                        <system value="http://snomed.info/sct"/>
                        <code value="224302000"/>
                        <display value="Received higher education college education (finding)"/>
                    </coding>
                </valueCodeableConcept>
            </Observation>
        </resource>
    </entry>
    <entry>
        <fullUrl value="http://example.org/fhir/us/dental-data-exchange/Observation/Present-job-example-dental"/>
        <resource>
            <Observation>
                <id value="Present-job-example-dental"/>
                <status value="final"/>
                <code>
                    <coding>
                        <system value="http://loinc.org"/>
                        <code value="11341-5"/>
                        <display value="History of Occupation"/>
                    </coding>
                </code>
                <subject>
                    <reference value="Patient/example-dental"/>
                    <display value="Patient A"/>
                </subject>
                <effectivePeriod>
                    <start value="2015-01-01"/>
                </effectivePeriod>
                <valueCodeableConcept>
                    <coding>
                        <system value="urn:oid:2.16.840.1.114222.4.11.7186"/>
                        <code value="0800"/>
                        <display value="Accountants and Auditors"/>
                    </coding>
                </valueCodeableConcept>
            </Observation>
        </resource>
    </entry>
    <entry>
        <fullUrl value="http://example.org/fhir/us/dental-data-exchange/Observation/vitals-panel"/>
        <resource>
            <Observation>
                <id value="vitals-panel"/>
                <status value="final"/>
                <category>
                    <coding>
                        <system value="http://terminology.hl7.org/CodeSystem/observation-category"/>
                        <code value="vital-signs"/>
                        <display value="Vital Signs"/>
                    </coding>
                    <text value="Vital Signs"/>
                </category>
                <code>
                    <coding>
                        <system value="http://loinc.org"/>
                        <code value="85353-1"/>
                        <display value="Vital signs, weight, height, head circumference, oxygen saturation and BMI panel"/>
                    </coding>
                    <text value="Vital signs Panel"/>
                </code>
                <subject>
                    <reference value="Patient/example-dental"/>
                </subject>
                <effectiveDateTime value="2020-02-14"/>
                <hasMember>
                    <reference value="Observation/respiratory-rate"/>
                    <display value="Respiratory Rate"/>
                </hasMember>
                <hasMember>
                    <reference value="Observation/heart-rate"/>
                    <display value="Heart Rate"/>
                </hasMember>
                <hasMember>
                    <reference value="Observation/blood-pressure"/>
                    <display value="Blood Pressure"/>
                </hasMember>
                <hasMember>
                    <reference value="Observation/body-temperature"/>
                    <display value="Body Temperature"/>
                </hasMember>
            </Observation>
        </resource>
    </entry>
    <entry>
        <fullUrl value="http://example.org/fhir/us/dental-data-exchange/Communication/dental-education"/>
        <resource>
            <Communication>
                <id value="dental-education"/>
                <status value="completed"/>
                <subject>
                    <reference value="Patient/example-dental"/>
                </subject>
                <encounter>
                    <reference value="Encounter/Med-visit-1"/>
                </encounter>
                <sent value="2020-02-14T18:01:10-08:00"/>
                <received value="2020-01-12T18:01:11-08:00"/>
                <recipient>
                    <reference value="Patient/example-dental"/>
                </recipient>
                <sender>
                    <reference value="Practitioner/practitioner-M"/>
                </sender>
                <payload>
                    <contentString value="Pt. Education. Advised to see dentist regularly, brush 2x/day w/ fluoride toothpaste, floss"/>
                </payload>
            </Communication>
        </resource>
    </entry>
    <entry>
        <fullUrl value="http://example.org/fhir/us/dental-data-exchange/Observation/respiratory-rate"/>
        <resource>
            <Observation>
                <id value="respiratory-rate"/>
                <status value="final"/>
                <category>
                    <coding>
                        <system value="http://terminology.hl7.org/CodeSystem/observation-category"/>
                        <code value="vital-signs"/>
                        <display value="Vital Signs"/>
                    </coding>
                    <text value="Vital Signs"/>
                </category>
                <code>
                    <coding>
                        <system value="http://loinc.org"/>
                        <code value="9279-1"/>
                        <display value="Respiratory rate"/>
                    </coding>
                    <text value="Respiratory rate"/>
                </code>
                <subject>
                    <reference value="Patient/example-dental"/>
                </subject>
                <effectiveDateTime value="2020-02-14"/>
                <valueQuantity>
                    <value value="20"/>
                    <unit value="breaths/minute"/>
                    <system value="http://unitsofmeasure.org"/>
                    <code value="/min"/>
                </valueQuantity>
            </Observation>
        </resource>
    </entry>
    <entry>
        <fullUrl value="http://example.org/fhir/us/dental-data-exchange/Observation/heart-rate"/>
        <resource>
            <Observation>
                <id value="heart-rate"/>
                <status value="final"/>
                <category>
                    <coding>
                        <system value="http://terminology.hl7.org/CodeSystem/observation-category"/>
                        <code value="vital-signs"/>
                        <display value="Vital Signs"/>
                    </coding>
                    <text value="Vital Signs"/>
                </category>
                <code>
                    <coding>
                        <system value="http://loinc.org"/>
                        <code value="8867-4"/>
                        <display value="Heart rate"/>
                    </coding>
                    <text value="Heart rate"/>
                </code>
                <subject>
                    <reference value="Patient/example-dental"/>
                </subject>
                <effectiveDateTime value="1999-07-02"/>
                <valueQuantity>
                    <value value="78"/>
                    <unit value="beats/minute"/>
                    <system value="http://unitsofmeasure.org"/>
                    <code value="/min"/>
                </valueQuantity>
            </Observation>
        </resource>
    </entry>
    <entry>
        <fullUrl value="http://example.org/fhir/us/dental-data-exchange/Observation/blood-pressure"/>
        <resource>
            <Observation>
                <id value="blood-pressure"/>
                <identifier>
                    <system value="urn:ietf:rfc:3986"/>
                    <value value="urn:uuid:187e0c12-8dd2-67e2-99b2-bf273c878281"/>
                </identifier>
                <basedOn>
                    <identifier>
                        <system value="https://acme.org/identifiers"/>
                        <value value="1234"/>
                    </identifier>
                </basedOn>
                <status value="final"/>
                <category>
                    <coding>
                        <system value="http://terminology.hl7.org/CodeSystem/observation-category"/>
                        <code value="vital-signs"/>
                        <display value="Vital Signs"/>
                    </coding>
                </category>
                <code>
                    <coding>
                        <system value="http://loinc.org"/>
                        <code value="85354-9"/>
                        <display value="Blood pressure panel with all children optional"/>
                    </coding>
                    <text value="Blood pressure systolic &amp; diastolic"/>
                </code>
                <subject>
                    <reference value="Patient/example-dental"/>
                </subject>
                <effectiveDateTime value="2020-02-14"/>
                <component>
                    <code>
                        <coding>
                            <system value="http://loinc.org"/>
                            <code value="8480-6"/>
                            <display value="Systolic blood pressure"/>
                        </coding>
                        <coding>
                            <system value="http://snomed.info/sct"/>
                            <code value="271649006"/>
                            <display value="Systolic blood pressure"/>
                        </coding>
                    </code>
                    <valueQuantity>
                        <value value="120"/>
                        <unit value="mmHg"/>
                        <system value="http://unitsofmeasure.org"/>
                        <code value="mm[Hg]"/>
                    </valueQuantity>
                </component>
                <component>
                    <code>
                        <coding>
                            <system value="http://loinc.org"/>
                            <code value="8462-4"/>
                            <display value="Diastolic blood pressure"/>
                        </coding>
                    </code>
                    <valueQuantity>
                        <value value="80"/>
                        <unit value="mmHg"/>
                        <system value="http://unitsofmeasure.org"/>
                        <code value="mm[Hg]"/>
                    </valueQuantity>
                </component>
            </Observation>
        </resource>
    </entry>
    <entry>
        <fullUrl value="http://example.org/fhir/us/dental-data-exchange/Observation/body-temperature"/>
        <resource>
            <Observation>
                <id value="body-temperature"/>
                <status value="final"/>
                <category>
                    <coding>
                        <system value="http://terminology.hl7.org/CodeSystem/observation-category"/>
                        <code value="vital-signs"/>
                        <display value="Vital Signs"/>
                    </coding>
                    <text value="Vital Signs"/>
                </category>
                <code>
                    <coding>
                        <system value="http://loinc.org"/>
                        <code value="8310-5"/>
                        <display value="Body temperature"/>
                    </coding>
                    <text value="Body temperature"/>
                </code>
                <subject>
                    <reference value="Patient/example-dental"/>
                </subject>
                <effectiveDateTime value="2020-02-14"/>
                <valueQuantity>
                    <value value="36.9"/>
                    <unit value="C"/>
                    <system value="http://unitsofmeasure.org"/>
                    <code value="Cel"/>
                </valueQuantity>
            </Observation>
        </resource>
    </entry>
    <entry>
        <fullUrl value="http://example.org/fhir/us/dental-data-exchange/Coverage/Dental-Aetna"/>
        <resource>
            <Coverage>
                <id value="Dental-Aetna"/>
                <identifier>
                    <system value="http://benefitsAetna.com/certificate"/>
                    <value value="12345"/>
                </identifier>
                <status value="active"/>
                <type>
                    <coding>
                        <system value="http://terminology.hl7.org/CodeSystem/v3-ActCode"/>
                        <code value="DENTAL"/>
                        <display value="dental care policy"/>
                    </coding>
                </type>
                <subscriber>
                    <reference value="Patient/example-dental"/>
                </subscriber>
                <subscriberId value="123456"/>
                <beneficiary>
                    <reference value="Patient/example-dental"/>
                </beneficiary>
                <dependent value="0"/>
                <relationship>
                    <coding>
                        <system value="http://terminology.hl7.org/CodeSystem/subscriber-relationship"/>
                        <code value="self"/>
                        <display value="Self"/>
                    </coding>
                </relationship>
                <period>
                    <start value="2020-01-01"/>
                    <end value="2020-01-01"/>
                </period>
                <payor>
                    <reference value="Organization/Aetna-organization"/>
                </payor>
                <class>
                    <type>
                        <coding>
                            <system value="http://terminology.hl7.org/CodeSystem/coverage-class"/>
                            <code value="plan"/>
                        </coding>
                    </type>
                    <value value="B37FC"/>
                    <name value="Aetna Full Coverage: Medical, Dental, Pharmacy, Vision, EHC"/>
                </class>
            </Coverage>
        </resource>
    </entry>
    <entry>
        <fullUrl value="http://example.org/fhir/us/dental-data-exchange/Condition/Tooth-infection18"/>
        <resource>
            <Condition>
                <id value="Tooth-infection18"/>
                <clinicalStatus>
                    <coding>
                        <system value="http://terminology.hl7.org/CodeSystem/condition-clinical"/>
                        <code value="active"/>
                        <display value="Active"/>
                    </coding>
                    <text value="Active"/>
                </clinicalStatus>
                <verificationStatus>
                    <coding>
                        <system value="http://terminology.hl7.org/CodeSystem/condition-ver-status"/>
                        <code value="confirmed"/>
                        <display value="Confirmed"/>
                    </coding>
                    <text value="Confirmed"/>
                </verificationStatus>
                <category>
                    <coding>
                        <system value="http://terminology.hl7.org/CodeSystem/condition-category"/>
                        <code value="problem-list-item"/>
                        <display value="Problem List Item"/>
                    </coding>
                    <text value="Problem List Item"/>
                </category>
                <category>
                    <coding>
                        <system value="http://hl7.org/fhir/us/dental-data-exchange/CodeSystem/dental-category"/>
                        <code value="dental"/>
                        <display value="Dental"/>
                    </coding>
                </category>
                <code>
                    <coding>
                        <system value="http://www.ada.org/snodent"/>
                        <code value="181608D"/>
                        <display value="Infection of tooth"/>
                    </coding>
                    <coding>
                        <system value="http://snomed.info/sct"/>
                        <code value="427898007"/>
                        <display value="Infection of tooth"/>
                    </coding>
                    <text value="Infection of tooth"/>
                </code>
                <bodySite>
                    <coding>
                        <system value="http://www.ada.org/snodent"/>
                        <code value="161372D"/>
                        <display value="Permanent lower left second molar tooth"/>
                    </coding>
                    <coding>
                        <system value="http://snomed.info/sct"/>
                        <code value="48402004"/>
                        <display value="Mandibular left second molar tooth"/>
                    </coding>
                    <text value="Mandibular left second molar tooth"/>
                </bodySite>
                <subject>
                    <reference value="Patient/example-dental"/>
                    <display value="Patient A"/>
                </subject>
            </Condition>
        </resource>
    </entry>
    <entry>
        <fullUrl value="http://example.org/fhir/us/dental-data-exchange/Condition/Mandibular-perm18-example"/>
        <resource>
            <Condition>
                <id value="Mandibular-perm18-example"/>
                <clinicalStatus>
                    <coding>
                        <system value="http://terminology.hl7.org/CodeSystem/condition-clinical"/>
                        <code value="active"/>
                        <display value="Active"/>
                    </coding>
                    <text value="Active"/>
                </clinicalStatus>
                <verificationStatus>
                    <coding>
                        <system value="http://terminology.hl7.org/CodeSystem/condition-ver-status"/>
                        <code value="confirmed"/>
                        <display value="Confirmed"/>
                    </coding>
                    <text value="Confirmed"/>
                </verificationStatus>
                <category>
                    <coding>
                        <system value="http://terminology.hl7.org/CodeSystem/condition-category"/>
                        <code value="problem-list-item"/>
                        <display value="Problem List Item"/>
                    </coding>
                    <text value="Problem"/>
                </category>
                <category>
                    <coding>
                        <system value="http://hl7.org/fhir/us/dental-data-exchange/CodeSystem/dental-category"/>
                        <code value="dental"/>
                        <display value="Dental"/>
                    </coding>
                </category>
                <category>
                    <coding>
                        <system value="http://www.ada.org/snodent"/>
                        <code value="118666D"/>
                        <display value="Disease of the mouth (disorder)"/>
                    </coding>
                    <coding>
                        <system value="http://snomed.info/sct"/>
                        <code value="118938008"/>
                        <display value="Disorder of mouth (disorder)"/>
                    </coding>
                    <text value="Disorder of mouth (disorder)"/>
                </category>
                <code>
                    <coding>
                        <system value="http://www.ada.org/snodent"/>
                        <code value="118065D"/>
                        <display value="Dental caries (disorder)"/>
                    </coding>
                    <coding>
                        <system value="http://snomed.info/sct"/>
                        <code value="80967001"/>
                        <display value="Dental caries (disorder)"/>
                    </coding>
                    <text value="Dental caries (disorder)"/>
                </code>
                <bodySite>
                    <coding>
                        <system value="http://www.ada.org/snodent"/>
                        <code value="161372D"/>
                        <display value="Permanent lower left second molar tooth"/>
                    </coding>
                    <coding>
                        <system value="http://snomed.info/sct"/>
                        <code value="48402004"/>
                        <display value="Mandibular left second molar tooth"/>
                    </coding>
                    <text value="Mandibular left second molar tooth"/>
                </bodySite>
                <subject>
                    <reference value="Patient/example-dental"/>
                    <display value="Patient A"/>
                </subject>
                <onsetDateTime value="2020-02-16"/>
            </Condition>
        </resource>
    </entry>
    <entry>
        <fullUrl value="http://example.org/fhir/us/dental-data-exchange/Condition/Maxillary-perm7-example"/>
        <resource>
            <Condition>
                <id value="Maxillary-perm7-example"/>
                <clinicalStatus>
                    <coding>
                        <system value="http://terminology.hl7.org/CodeSystem/condition-clinical"/>
                        <code value="active"/>
                        <display value="Active"/>
                    </coding>
                    <text value="Active"/>
                </clinicalStatus>
                <verificationStatus>
                    <coding>
                        <system value="http://terminology.hl7.org/CodeSystem/condition-ver-status"/>
                        <code value="confirmed"/>
                        <display value="Confirmed"/>
                    </coding>
                    <text value="Confirmed"/>
                </verificationStatus>
                <category>
                    <coding>
                        <system value="http://terminology.hl7.org/CodeSystem/condition-category"/>
                        <code value="problem-list-item"/>
                        <display value="Problem List Item"/>
                    </coding>
                    <text value="Problem"/>
                </category>
                <category>
                    <coding>
                        <system value="http://hl7.org/fhir/us/dental-data-exchange/CodeSystem/dental-category"/>
                        <code value="dental"/>
                        <display value="Dental"/>
                    </coding>
                </category>
                <code>
                    <coding>
                        <system value="http://www.ada.org/snodent"/>
                        <code value="118065D"/>
                        <display value="Dental caries (disorder)"/>
                    </coding>
                    <coding>
                        <system value="http://snomed.info/sct"/>
                        <code value="80967001"/>
                        <display value="Dental caries (disorder)"/>
                    </coding>
                    <text value="Dental caries (disorder)"/>
                </code>
                <bodySite>
                    <coding>
                        <system value="http://www.ada.org/snodent"/>
                        <code value="161941D"/>
                        <display value="Permanent upper right lateral incisor tooth"/>
                    </coding>
                    <coding>
                        <system value="http://snomed.info/sct"/>
                        <code value="245574002"/>
                        <display value="Entire permanent maxillary right lateral incisor tooth (body structure)"/>
                    </coding>
                    <text value="Entire permanent maxillary right lateral incisor tooth (body structure)"/>
                </bodySite>
                <subject>
                    <reference value="Patient/example-dental"/>
                    <display value="Patient A"/>
                </subject>
                <onsetDateTime value="2019-06-10"/>
            </Condition>
        </resource>
    </entry>
    <entry>
        <fullUrl value="http://example.org/fhir/us/dental-data-exchange/Observation/Overjet"/>
        <resource>
            <Observation>
                <id value="Overjet"/>
                <status value="final"/>
                <category>
                    <coding>
                        <system value="http://terminology.hl7.org/CodeSystem/observation-category"/>
                        <code value="exam"/>
                        <display value="Exam"/>
                    </coding>
                    <text value="Exam"/>
                </category>
                <category>
                    <coding>
                        <system value="http://hl7.org/fhir/us/dental-data-exchange/CodeSystem/dental-category"/>
                        <code value="dental"/>
                        <display value="Dental"/>
                    </coding>
                </category>
                <code>
                    <coding>
                        <system value="http://loinc.org"/>
                        <code value="32916-9"/>
                        <display value="Horizontal overlap [Length] Maxilla and Mandible Measured"/>
                    </coding>
                    <text value="Overjet"/>
                </code>
                <subject>
                    <reference value="Patient/example-dental"/>
                </subject>
                <effectiveDateTime value="2020-02-16"/>
                <valueQuantity>
                    <value value="3"/>
                    <unit value="mm"/>
                    <system value="http://unitsofmeasure.org"/>
                </valueQuantity>
            </Observation>
        </resource>
    </entry>
    <entry>
        <fullUrl value="http://example.org/fhir/us/dental-data-exchange/MedicationRequest/erythromycin-medreq-2"/>
        <resource>
            <MedicationRequest>
                <id value="erythromycin-medreq-2"/>
                <status value="active"/>
                <intent value="plan"/>
                <medicationReference>
                    <reference value="Medication/erythromycin-med-example"/>
                </medicationReference>
                <subject>
                    <reference value="Patient/example-dental"/>
                    <display value="Patient A"/>
                </subject>
                <authoredOn value="2017-12-06"/>
                <requester>
                    <reference value="Practitioner/practitioner-D"/>
                    <display value="Dr. John M, MD"/>
                </requester>
                <dosageInstruction>
                    <text value="Take 1 tablet every six hours X10 days"/>
                    <timing>
                        <repeat>
                            <boundsPeriod>
                                <start value="2017-12-06"/>
                            </boundsPeriod>
                        </repeat>
                    </timing>
                </dosageInstruction>
                <dispenseRequest>
                    <numberOfRepeatsAllowed value="1"/>
                    <quantity>
                        <value value="500"/>
                        <unit value="mg"/>
                        <system value="http://unitsofmeasure.org"/>
                        <code value="mg"/>
                    </quantity>
                    <expectedSupplyDuration>
                        <value value="10"/>
                        <unit value="days"/>
                        <system value="http://unitsofmeasure.org"/>
                        <code value="d"/>
                    </expectedSupplyDuration>
                </dispenseRequest>
            </MedicationRequest>
        </resource>
    </entry>
    <entry>
        <fullUrl value="http://example.org/fhir/us/dental-data-exchange/MedicationRequest/Ibuprofen-medreq-2"/>
        <resource>
            <MedicationRequest>
                <id value="Ibuprofen-medreq-2"/>
                <status value="completed"/>
                <intent value="plan"/>
                <medicationReference>
                    <reference value="Medication/ibuprofen-med-example-2"/>
                </medicationReference>
                <subject>
                    <reference value="Patient/example-dental"/>
                    <display value="Patient A"/>
                </subject>
                <authoredOn value="2019-12-06"/>
                <requester>
                    <reference value="Practitioner/practitioner-D"/>
                    <display value="Dr. John M, MD"/>
                </requester>
                <dosageInstruction>
                    <text value="Take 2-3 tablets every 8 hours as needed for pain"/>
                    <timing>
                        <repeat>
                            <boundsPeriod>
                                <start value="2019-12-06"/>
                            </boundsPeriod>
                        </repeat>
                    </timing>
                </dosageInstruction>
                <dispenseRequest>
                    <numberOfRepeatsAllowed value="1"/>
                    <quantity>
                        <value value="200"/>
                        <unit value="mg"/>
                        <system value="http://unitsofmeasure.org"/>
                        <code value="mg"/>
                    </quantity>
                    <expectedSupplyDuration>
                        <value value="30"/>
                        <unit value="days"/>
                        <system value="http://unitsofmeasure.org"/>
                        <code value="d"/>
                    </expectedSupplyDuration>
                </dispenseRequest>
            </MedicationRequest>
        </resource>
    </entry>
    <entry>
        <fullUrl value="http://example.org/fhir/us/dental-data-exchange/MedicationRequest/Tylenol-med-dental"/>
        <resource>
            <MedicationRequest>
                <id value="Tylenol-med-dental"/>
                <status value="active"/>
                <intent value="plan"/>
                <medicationCodeableConcept>
                    <coding>
                        <system value="http://www.nlm.nih.gov/research/umls/rxnorm"/>
                        <code value="993836"/>
                        <display value="Acetaminophen 300 MG / Codeine Phosphate 30 MG [Tylenol with Codeine]"/>
                    </coding>
                    <text value="Acetaminophen 300 MG / Codeine Phosphate 30 MG [Tylenol with Codeine]"/>
                </medicationCodeableConcept>
                <subject>
                    <reference value="Patient/example-dental"/>
                    <display value="Patient A"/>
                </subject>
                <authoredOn value="2020-03-30"/>
                <requester>
                    <reference value="Practitioner/practitioner-D"/>
                    <display value="Dr. Dental D, DMD"/>
                </requester>
                <dosageInstruction>
                    <text value="take 1 tablet every 4 hours as needed for pain"/>
                    <route>
                        <coding>
                            <system value="http://snomed.info/sct"/>
                            <code value="26643006"/>
                            <display value="Oral use"/>
                        </coding>
                    </route>
                </dosageInstruction>
                <dispenseRequest>
                    <numberOfRepeatsAllowed value="10"/>
                    <quantity>
                        <value value="300"/>
                        <unit value="mg"/>
                        <system value="http://unitsofmeasure.org"/>
                        <code value="mg"/>
                    </quantity>
                    <expectedSupplyDuration>
                        <value value="30"/>
                        <unit value="days"/>
                        <system value="http://unitsofmeasure.org"/>
                        <code value="d"/>
                    </expectedSupplyDuration>
                </dispenseRequest>
            </MedicationRequest>
        </resource>
    </entry>
    <entry>
        <fullUrl value="http://example.org/fhir/us/dental-data-exchange/ServiceRequest/Dental-extraction-example"/>
        <resource>
            <ServiceRequest>
                <id value="Dental-extraction-example"/>
                <status value="active"/>
                <intent value="plan"/>
                <category>
                    <coding>
                      <system value="http://snomed.info/sct"/>
                        <code value="387713003"/>
                        <display value="Surgical procedure"/>
                    </coding>
                    <text value="Surgical procedure"/>
                </category>
                <code>
                    <coding>
                      <system value="http://ada.org/cdt"/>
                        <code value="D7140"/>
                        <display value="Extraction, erupted tooth or exposed root (elevation and/or forceps removal)"/>
                    </coding>
                    <text value="Extraction, erupted tooth or exposed root (elevation and/or forceps removal)"/>
                </code>
                <subject>
                    <reference value="Patient/example-dental"/>
                </subject>
                <requester>
                    <reference value="Practitioner/practitioner-D"/>
                </requester>
                <bodySite>
                    <coding>
                        <system value="http://snomed.info/sct"/>
                        <code value="48402004"/>
                        <display value="Structure of mandibular left second molar tooth"/>
                    </coding>
                    <coding>
                        <system value="http://www.ada.org/snodent"/>
                        <code value="161372D"/>
                        <display value="Permanent lower left second molar tooth"/>
                    </coding>
                </bodySite>
            </ServiceRequest>
        </resource>
    </entry>
    <entry>
        <fullUrl value="http://example.org/fhir/us/dental-data-exchange/ServiceRequest/Resin-restore-example"/>
        <resource>
            <ServiceRequest>
                <id value="Resin-restore-example"/>
                <status value="active"/>
                <intent value="plan"/>
                <code>
                    <coding>
                      <system value="http://ada.org/cdt"/>
                        <code value="D1352"/>
                        <display value="Preventive resin restoration in a moderate to high caries risk patient-permanent tooth"/>
                    </coding>
                    <text value="Preventive resin restoration in a moderate to high caries risk patient-permanent tooth"/>
                </code>
                <subject>
                    <reference value="Patient/example-dental"/>
                </subject>
                <requester>
                    <reference value="Practitioner/practitioner-D"/>
                </requester>
                <bodySite>
                    <coding>
                        <system value="http://www.ada.org/snodent"/>
                        <code value="161941D"/>
                        <display value="Permanent upper right lateral incisor tooth"/>
                    </coding>
                    <coding>
                        <system value="http://snomed.info/sct"/>
                        <code value="245574002"/>
                        <display value="Entire maxillary right lateral incisor tooth"/>
                    </coding>
                    <text value="Entire maxillary right lateral incisor tooth"/>
                </bodySite>
            </ServiceRequest>
        </resource>
    </entry>
    <entry>
        <fullUrl value="http://example.org/fhir/us/dental-data-exchange/ServiceRequest/prophylaxis-example"/>
        <resource>
            <ServiceRequest>
                <id value="prophylaxis-example"/>
                <status value="active"/>
                <intent value="plan"/>
                <code>
                    <coding>
                      <system value="http://ada.org/cdt"/>
                        <code value="D1352"/>
                        <display value="Preventive resin restoration in a moderate to high caries risk patient-permanent tooth"/>
                    </coding>
                    <text value="Preventive resin restoration in a moderate to high caries risk patient-permanent tooth"/>
                </code>
                <subject>
                    <reference value="Patient/example-dental"/>
                </subject>
                <requester>
                    <reference value="Practitioner/practitioner-D"/>
                </requester>
                <bodySite>
                    <coding>
                        <system value="http://www.ada.org/snodent"/>
                        <code value="161941D"/>
                        <display value="Permanent upper right lateral incisor tooth"/>
                    </coding>
                    <coding>
                        <system value="http://snomed.info/sct"/>
                        <code value="245574002"/>
                        <display value="Entire maxillary right lateral incisor tooth"/>
                    </coding>
                    <text value="Entire maxillary right lateral incisor tooth"/>
                </bodySite>
            </ServiceRequest>
        </resource>
    </entry>
    <entry>
        <fullUrl value="http://example.org/fhir/us/dental-data-exchange/ServiceRequest/Radiograph-survey"/>
        <resource>
            <ServiceRequest>
                <id value="Radiograph-survey"/>
                <status value="active"/>
                <intent value="plan"/>
                <code>
                    <coding>
                      <system value="http://ada.org/cdt"/>
                        <code value="D0210"/>
                        <display value="Full mouth radiographic survey"/>
                    </coding>
                    <text value="Full mouth radiographic survey"/>
                </code>
                <subject>
                    <reference value="Patient/example-dental"/>
                </subject>
                <requester>
                    <reference value="Practitioner/practitioner-D"/>
                </requester>
            </ServiceRequest>
        </resource>
    </entry>
    <entry>
        <fullUrl value="http://example.org/fhir/us/dental-data-exchange/Procedure/Dental-flouride-tx-example"/>
        <resource>
            <Procedure>
                <id value="Dental-flouride-tx-example"/>
                <identifier>
                    <system value="urn:ietf:rfc:3986"/>
                    <value value="urn:uuid:c2a737f2-2fdb-49c1-b097-dac173d07aff"/>
                </identifier>
                <status value="completed"/>
                <code>
                    <coding>
                      <system value="http://ada.org/cdt"/>
                        <code value="D1206"/>
                    </coding>
                    <text value="topical application of fluoride varnish"/>
                </code>
                <subject>
                    <reference value="Patient/example-dental"/>
                </subject>
                <performedPeriod>
                    <start value="2020-02-16T12:55:26-07:00"/>
                    <end value="2020-02-16T13:25:26-07:00"/>
                </performedPeriod>
                <performer>
                    <actor>
                        <reference value="Practitioner/practitioner-D"/>
                    </actor>
                </performer>
            </Procedure>
        </resource>
    </entry>
    <entry>
        <fullUrl value="http://example.org/fhir/us/dental-data-exchange/Communication/dental-education2"/>
        <resource>
            <Communication>
                <id value="dental-education2"/>
                <status value="completed"/>
                <subject>
                    <reference value="Patient/example-dental"/>
                </subject>
                <encounter>
                    <reference value="Encounter/Dental-encounter"/>
                </encounter>
                <sent value="2020-02-16T18:01:10-08:00"/>
                <received value="2020-01-16T18:01:11-08:00"/>
                <recipient>
                    <reference value="Patient/example-dental"/>
                </recipient>
                <sender>
                    <reference value="Practitioner/practitioner-D"/>
                </sender>
                <payload>
                    <contentString value="Patient educated on the benefits of using a fluoride toothpaste, daily flossing, and bi-annual routine dental cleaning visits."/>
                </payload>
            </Communication>
        </resource>
    </entry>
    <entry>
        <fullUrl value="http://example.org/fhir/us/dental-data-exchange/Practitioner/practitioner-D"/>
        <resource>
            <Practitioner>
                <id value="practitioner-D"/>
                <identifier>
                    <system value="http://hl7.org/fhir/sid/us-npi"/>
                    <value value="1234560000"/>
                </identifier>
                <name>
                    <family value="D"/>
                    <given value="John"/>
                    <prefix value="Dr"/>
                </name>
                <telecom>
                    <system value="phone"/>
                    <value value="720-555-6443"/>
                    <use value="work"/>
                </telecom>
                <gender value="male"/>
                <birthDate value="1990-06-09"/>
            </Practitioner>
        </resource>
    </entry>
    <entry>
        <fullUrl value="http://example.org/fhir/us/dental-data-exchange/Encounter/Dental-encounter"/>
        <resource>
            <Encounter>
                <id value="Dental-encounter"/>
                <status value="finished"/>
                <class>
                    <system value="http://terminology.hl7.org/CodeSystem/v3-ActCode"/>
                    <code value="AMB"/>
                    <display value="ambulatory"/>
                </class>
                <type>
                    <coding>
                        <system value="http://snomed.info/sct"/>
                        <code value="185347001"/>
                    </coding>
                    <text value="Encounter for problem (procedure)"/>
                </type>
                <priority>
                    <coding>
                        <system value="http://terminology.hl7.org/CodeSystem/v3-ActPriority"/>
                        <code value="R"/>
                        <display value="routine"/>
                    </coding>
                </priority>
                <subject>
                    <reference value="Patient/example-dental"/>
                </subject>
                <period>
                    <start value="2020-02-16T15:00:14-05:00"/>
                    <end value="2020-02-16T15:30:14-05:00"/>
                </period>
            </Encounter>
        </resource>
    </entry>
    <entry>
        <fullUrl value="http://example.org/fhir/us/dental-data-exchange/Organization/GOHC-organization"/>
        <resource>
            <Organization>
                <id value="GOHC-organization"/>
                <identifier>
                    <system value="http://hl7.org/fhir/sid/us-npi"/>
                    <value value="2316452725"/>
                </identifier>
                <active value="true"/>
                <type>
                    <coding>
                        <system value="http://terminology.hl7.org/CodeSystem/organization-type"/>
                        <code value="prov"/>
                        <display value="Healthcare Provider"/>
                    </coding>
                </type>
                <name value="Good Oral Health Clinic"/>
                <telecom>
                    <system value="phone"/>
                    <value value="(+1) 720-677-7777"/>
                </telecom>
                <telecom>
                    <system value="email"/>
                    <value value="customer2-service@GHclinic.org"/>
                </telecom>
                <address>
                    <line value="7552 W Alameda Ave"/>
                    <city value="Lakewood"/>
                    <state value="CO"/>
                    <postalCode value="80226"/>
                    <country value="USA"/>
                </address>
            </Organization>
        </resource>
    </entry>
    <entry>
        <fullUrl value="http://example.org/fhir/us/dental-data-exchange/Condition/Dental-caries"/>
        <resource>
            <Condition>
                <id value="Dental-caries"/>
                <clinicalStatus>
                    <coding>
                        <system value="http://terminology.hl7.org/CodeSystem/condition-clinical"/>
                        <code value="active"/>
                        <display value="Active"/>
                    </coding>
                    <text value="Active"/>
                </clinicalStatus>
                <verificationStatus>
                    <coding>
                        <system value="http://terminology.hl7.org/CodeSystem/condition-ver-status"/>
                        <code value="confirmed"/>
                        <display value="Confirmed"/>
                    </coding>
                    <text value="Confirmed"/>
                </verificationStatus>
                <category>
                    <coding>
                        <system value="http://terminology.hl7.org/CodeSystem/condition-category"/>
                        <code value="problem-list-item"/>
                        <display value="Problem List Item"/>
                    </coding>
                    <text value="Problem"/>
                </category>
                <category>
                    <coding>
                        <system value="http://hl7.org/fhir/us/dental-data-exchange/CodeSystem/dental-category"/>
                        <code value="dental"/>
                        <display value="Dental"/>
                    </coding>
                </category>
                <code>
                    <coding>
                        <system value="http://www.ada.org/snodent"/>
                        <code value="118065D"/>
                        <display value="Dental caries (disorder)"/>
                    </coding>
                    <coding>
                        <system value="http://snomed.info/sct"/>
                        <code value="80967001"/>
                        <display value="Dental caries (disorder)"/>
                    </coding>
                    <text value="Dental caries (disorder)"/>
                </code>
                <subject>
                    <reference value="Patient/example-dental"/>
                    <display value="Patient A"/>
                </subject>
                <onsetDateTime value="2020-02-16"/>
            </Condition>
        </resource>
    </entry>
    <entry>
        <fullUrl value="http://example.org/fhir/us/dental-data-exchange/Condition/no-chew"/>
        <resource>
            <Condition>
                <id value="no-chew"/>
                <clinicalStatus>
                    <coding>
                        <system value="http://terminology.hl7.org/CodeSystem/condition-clinical"/>
                        <code value="active"/>
                        <display value="Active"/>
                    </coding>
                    <text value="Active"/>
                </clinicalStatus>
                <verificationStatus>
                    <coding>
                        <system value="http://terminology.hl7.org/CodeSystem/condition-ver-status"/>
                        <code value="confirmed"/>
                        <display value="Confirmed"/>
                    </coding>
                    <text value="Confirmed"/>
                </verificationStatus>
                <category>
                    <coding>
                        <system value="http://terminology.hl7.org/CodeSystem/condition-category"/>
                        <code value="problem-list-item"/>
                        <display value="Problem List Item"/>
                    </coding>
                    <text value="Problem List Item"/>
                </category>
                <category>
                    <coding>
                        <system value="http://hl7.org/fhir/us/dental-data-exchange/CodeSystem/dental-category"/>
                        <code value="dental"/>
                        <display value="Dental"/>
                    </coding>
                </category>
                <code>
                    <coding>
                        <system value="http://www.ada.org/snodent"/>
                        <code value="126488D"/>
                        <display value="Unable to chew (finding)"/>
                    </coding>
                    <coding>
                        <system value="http://snomed.info/sct"/>
                        <code value="288920002"/>
                        <display value="Unable to chew (finding)"/>
                    </coding>
                    <text value="Unable to chew (finding)"/>
                </code>
                <subject>
                    <reference value="Patient/example-dental"/>
                    <display value="Patient A"/>
                </subject>
            </Condition>
        </resource>
    </entry>
    <entry>
        <fullUrl value="http://example.org/fhir/us/dental-data-exchange/Condition/Chronic-periodontitis-example"/>
        <resource>
            <Condition>
                <id value="Chronic-periodontitis-example"/>
                <clinicalStatus>
                    <coding>
                        <system value="http://terminology.hl7.org/CodeSystem/condition-clinical"/>
                        <code value="active"/>
                        <display value="Active"/>
                    </coding>
                    <text value="Active"/>
                </clinicalStatus>
                <verificationStatus>
                    <coding>
                        <system value="http://terminology.hl7.org/CodeSystem/condition-ver-status"/>
                        <code value="confirmed"/>
                        <display value="Confirmed"/>
                    </coding>
                    <text value="Confirmed"/>
                </verificationStatus>
                <category>
                    <coding>
                        <system value="http://terminology.hl7.org/CodeSystem/condition-category"/>
                        <code value="problem-list-item"/>
                        <display value="Problem List Item"/>
                    </coding>
                    <text value="Problem"/>
                </category>
                <category>
                    <coding>
                        <system value="http://hl7.org/fhir/us/dental-data-exchange/CodeSystem/dental-category"/>
                        <code value="dental"/>
                        <display value="Dental"/>
                    </coding>
                </category>
                <category>
                    <coding>
                        <system value="http://www.ada.org/snodent"/>
                        <code value="118666D"/>
                        <display value="Disorder of mouth (disorder)"/>
                    </coding>
                    <text value="Dental Problem List"/>
                </category>
                <code>
                    <coding>
                        <system value="http://www.ada.org/snodent"/>
                        <code value="116957D"/>
                        <display value="Chronic periodontitis (disorder)"/>
                    </coding>
                    <coding>
                        <system value="http://snomed.info/sct"/>
                        <code value="5689008"/>
                        <display value="Chronic periodontitis (disorder)"/>
                    </coding>
                    <text value="Chronic periodontitis (disorder)"/>
                </code>
                <subject>
                    <reference value="Patient/example-dental"/>
                    <display value="Patient A"/>
                </subject>
                <onsetDateTime value="2020-02-14"/>
            </Condition>
        </resource>
    </entry>
</Bundle>